{
  "resourceType": "Bundle",
  "meta": {
    "profile": [
      "http://jpfhir.jp/fhir/ePrescription/StructureDefinition/JP_Bundle_ePrescriptionData"
    ]
  },
  "identifier": {
    "system": "urn:ietf:rfc:3986",
    "value": "urn:uuid:0c3151bd-1cbf-4d64-b04d-cd9187a4c6e0"
  },
  "type": "document",
  "timestamp": "2020-08-21T12:12:2+09:00",
  "entry": [
    {
      "fullUrl": "urn:uuid:7038d706-ae0c-132b-f397-d2ca328e7af4",
      "resource": {
        "resourceType": "Composition",
        "meta": {
          "profile": [
            "http://jpfhir.jp/fhir/ePrescription/StructureDefinition/JP_Composition_ePrescriptionData"
          ]
        },
        "text": {
          "status": "generated",
          "div": "<div xmlns=\"http://www.w3.org/1999/xhtml\"><p>xxx</p></div>"
        },
        "extension": [
          {
            "url": "http://hl7.org/fhir/StructureDefinition/composition-clinicaldocument-versionNumber",
            "valueString": "1.0"
          }
        ],
        "identifier": [
          {
            "system": "urn:oid:1.2.392.100495.20.3.11",
            "value": "1311234567-2020-00123456"
          }
        ],
        "status": "final",
        "type": {
          "coding": [
            {
              "system": "http://jpfhir.jp/fhir/Common/CodeSystem/doc-typecodes",
              "code": "57833-6",
              "display": "処方箋"
            }
          ]
        },
        "category": {
          "coding": [
            {
              "system": "http://jpfhir.jp/fhir/ePrescription/CodeSystem/prescription-category",
              "code": "03",
              "display": "分割処方箋"
            }
          ]
        },
        "subject": {
          "reference": "urn:uuid:1af0a9a6-a91d-3aef-fc4e-069995b89c4f"
        },
        "encounter": {
          "reference": "urn:uuid:1af0a9a6-a91d-8aef-d14e-069795b89c9f"
        },
        "date": "2020-08-21T12:12:21+09:00",
        "author": [
          {
            "reference": "urn:uuid:7f60d206-66c5-4998-931e-86bf2b2d0bdc"
          }
        ],
        "title": "分割処方箋",
        "custodian": {
          "reference": "urn:uuid:92834f52-7e62-1840-5c10-771084179379"
        },
        "section": [
          {
            "title": "分割処方箋セクション",
            "code": {
              "coding": [
                {
                  "system": "http://jpfhir.jp/fhir/ePrescription/CodeSystem/prescription-section",
                  "code": "11",
                  "display": "分割処方箋セクション"
                }
              ]
            },
            "text": {
              "status": "generated",
              "div": "<div xmlns=\"http://www.w3.org/1999/xhtml\">xxx</div>"
            },
            "entry": [
              {
                "reference": "urn:uuid:9495ef34-a77d-4f3e-8dce-5688e169d0fa"
              },
              {
                "reference": "urn:uuid:b0025d4d-3002-4f5e-fb4e-abead28aee35"
              },
              {
                "reference": "urn:uuid:df8b4e6a-5d45-f4ce-a1af-ff0ca94242b8"
              }
            ]
          },
          {
            "title": "別紙セクション",
            "code": {
              "coding": [
                {
                  "system": "http://jpfhir.jp/fhir/ePrescription/CodeSystem/prescription-section",
                  "code": "12",
                  "display": "分割処方箋別紙セクション"
                }
              ]
            },
            "text": {
              "status": "generated",
              "div": "<div xmlns=\"http://www.w3.org/1999/xhtml\">xxx</div>"
            },
            "entry": [
              {
                "reference": "urn:uuid:ef7892cc-fb3a-b951-9ac7-f8cd6c746f0a"
              }
            ]
          }
        ]
      }
    },
    {
      "fullUrl": "urn:uuid:9495ef34-a77d-4f3e-8dce-5688e169d0fa",
      "resource": {
        "resourceType": "Bundle",
        "": "～ 省略 ～"
      }
    },
    {
      "fullUrl": "urn:uuid:b0025d4d-3002-4f5e-fb4e-abead28aee35",
      "resource": {
        "resourceType": "Bundle",
        "": "～ 省略 ～"
      }
    },
    {
      "fullUrl": "urn:uuid:df8b4e6a-5d45-f4ce-a1af-ff0ca94242b8",
      "resource": {
        "resourceType": "Bundle",
        "": "～ 省略 ～"
      }
    },
    {
      "": "～ 患者その他 Resource 省略 ～"
    },
    {
      "fullUrl": "urn:uuid:ef7892cc-fb3a-b951-9ac7-f8cd6c746f0a",
      "resource": {
        "resourceType": "Organization",
        "meta": {
          "profile": [
            "http://jpfhir.jp/fhir/ePrescription/StructureDefinition/JP_Organization_ePrescriptionData_issuer"
          ]
        },
        "text": {
          "status": "generated",
          "div": "<div xmlns=\"http://www.w3.org/1999/xhtml\"><ul><li>1311234567</li><li>第一病院</li><li>〒100-0001 東京都千代田区千代田９－９－９</li><li>0123-456-7890</li></ul></div>"
        },
        "extension": [
          {
            "url": "http://jpfhir.jp/fhir/core/Extension/StructureDefinition/JP_Organization_PrefectureNo",
            "valueIdentifier": {
              "system": "urn:oid:1.2.392.100495.20.3.21",
              "value": "13"
            }
          },
          {
            "url": "http://jpfhir.jp/fhir/core/Extension/StructureDefinition/JP_Organization_InsuranceOrganizationCategory",
            "valueIdentifier": {
              "system": "urn:oid:1.2.392.100495.20.3.22",
              "value": "1"
            }
          },
          {
            "url": "http://jpfhir.jp/fhir/core/Extension/StructureDefinition/JP_Organization_InsuranceOrganizationNo",
            "valueIdentifier": {
              "system": "urn:oid:1.2.392.100495.20.3.23",
              "value": "1234567"
            }
          }
        ],
        "identifier": [
          {
            "system": "http://jpfhir.jp/fhir/Common/IdSystem/insurance-medical-institution-no",
            "value": "1311234567"
          }
        ],
        "type": [
          {
            "coding": {
              "system": "http://terminology.hl7.org/CodeSystem/organization-type",
              "code": "prov"
            }
          }
        ],
        "name": "第一病院",
        "telecom": [
          {
            "system": "phone",
            "value": "0123-456-7890"
          },
          {
            "system": "fax",
            "value": "0123-456-7891"
          },
          {
            "system": "other",
            "value": "090-9999-9999"
          }
        ]
      }
    }
  ],
  "signature": {
    "type": [
      {
        "system": "urn:iso-astm:E1762-95:2013",
        "code": "1.2.840.10065.1.12.1.1",
        "display": "作成者の署名"
      }
    ],
    "when": "2021-02-01T13:28:18.345+09:00",
    "who": {
      "reference": "urn:uuid:195a292d-169a-5cc4-0e10-7a1c0d3fcb2b"
    },
    "data": "dCjftJeZ4CVP-mB92K28uhbUJU1p1r_wW1gFWFODjXk"
  }
}