{
  "resourceType": "Bundle",
  "id": "Bundle-for-JP-MedReq-ePreBundleExample01",
  "meta": {
    "profile": [
      "http://jpfhir.jp/fhir/ePrescription/StructureDefinition/JP_Bundle_ePrescriptionData"
    ]
  },
  "identifier": {
    "system": "urn:ietf:rfc:3986",
    "value": "urn:uuid:0c3151bd-1cbf-4d64-b04d-cd9187a4c6e0"
  },
  "type": "document",
  "timestamp": "2020-08-21T12:12:21+09:00",
  "entry": [
    {
      "fullUrl": "urn:uuid:20ade057-b106-9223-585e-20aa8d1635af",
      "resource": {
        "resourceType": "Composition",
        "id": "JP-Composition-ePreBundleExample01",
        "meta": {
          "profile": [
            "http://jpfhir.jp/fhir/ePrescription/StructureDefinition/JP_Composition_ePrescriptionData"
          ]
        },
        "language": "ja",
        "extension": [
          {
            "url": "http://hl7.org/fhir/StructureDefinition/composition-clinicaldocument-versionNumber",
            "valueString": "1"
          }
        ],
        "text": {
          "status": "generated",
          "div": "<div xmlns=\"http://www.w3.org/1999/xhtml\" lang=\"ja\" xml:lang=\"ja\"><p>自治体検診結果報告書</p></div>"
        },
        "identifier": {
          "system": "http://jpfhir.jp/fhir/Common/IdSystem/resourceInstance-identifier",
          "value": "34875506"
        },
        "status": "final",
        "type": {
          "coding": [
            {
              "code": "57833-6",
              "system": "http://jpfhir.jp/fhir/Common/CodeSystem/doc-typecodes",
              "display": "処方箋"
            }
          ]
        },
        "category": [
          {
            "coding": [
              {
                "code": "01",
                "system": "http://jpfhir.jp/fhir/ePrescription/CodeSystem/prescription-category",
                "display": "一般処方箋"
              }
            ]
          }
        ],
        "subject": {
          "reference": "urn:uuid:e22017ff-4c65-649c-2dfe-c6676b654be5",
          "display": "患者リソースPatient"
        },
        "encounter": {
          "reference": "urn:uuid:d151a740-d8a1-9c19-29f0-f52476e619d7",
          "display": "受診Encounterリソース"
        },
        "date": "2020-08-21T12:12:20+09:00",
        "author": [
          {
            "reference": "urn:uuid:2e61a47b-a7fa-1d23-ebbf-eade736e9b00",
            "display": "処方作成者PractitionerRoleリソース"
          },
          {
            "reference": "urn:uuid:51c6333d-92ff-0113-56cd-a1f566f43a09",
            "display": "処方作成機関Organaizationリソース"
          }
        ],
        "title": "処方箋",
        "custodian": {
          "reference": "urn:uuid:51c6333d-92ff-0113-56cd-a1f566f43a09",
          "display": "処方箋交付責任機関Organaizationリソース"
        },
        "event": [
          {
            "code": [
              {
                "text": "処方箋交付"
              }
            ],
            "period": {
              "start": "2020-08-21"
            }
          }
        ],
        "section": [
          {
            "title": "処方情報",
            "code": {
              "coding": [
                {
                  "code": "01",
                  "system": "http://jpfhir.jp/fhir/ePrescription/CodeSystem/prescription-section",
                  "display": "処方情報セクション"
                }
              ]
            },
            "entry": [
              {
                "reference": "urn:uuid:9b4e6a12-7bb3-5d46-a126-31b33410f796",
                "display": "健康保険Coverage"
              },
              {
                "reference": "urn:uuid:a1ae0c57-d89f-3757-081d-05466134481d",
                "display": "健康保険者Organaization"
              },
              {
                "reference": "urn:uuid:32326e64-2e22-2ea9-06e8-460ce4b70593",
                "display": "公費負担Coverage"
              },
              {
                "reference": "urn:uuid:73e9e96a-3c8b-1125-937b-06639ed865c1",
                "display": "公費負担者Organaization"
              },
              {
                "reference": "urn:uuid:a58040b7-6283-fb0c-4b25-a17dca08cc3d",
                "display": "処方指示 内服処方7日分MedicationRequestリソース"
              },
              {
                "reference": "urn:uuid:632cdb4b-36fe-05fb-9a3d-b4230cb7e608",
                "display": "処方指示 外用MedicationRequestリソース"
              },
              {
                "reference": "urn:uuid:499f7db1-b4c2-3d01-b1a0-dfdb502977ab",
                "display": "調剤者への指示"
              }
            ]
          }
        ]
      }
    },
    {
      "fullUrl": "urn:uuid:e22017ff-4c65-649c-2dfe-c6676b654be5",
      "resource": {
        "resourceType": "Patient",
        "id": "JP-Patient-ePreData-Example",
        "meta": {
          "profile": [
            "http://jpfhir.jp/fhir/core/StructureDefinition/JP_Patient",
            "http://jpfhir.jp/fhir/ePrescription/StructureDefinition/JP_Patient_ePrescriptionData"
          ]
        },
        "identifier": [
          {
            "system": "urn:oid:1.2.392.100495.20.3.51.11311234567",
            "value": "00000010"
          }
        ],
        "name": [
          {
            "extension": [
              {
                "url": "http://hl7.org/fhir/StructureDefinition/iso21090-EN-representation",
                "valueCode": "IDE"
              }
            ],
            "use": "official",
            "text": "東京　太郎",
            "family": "東京",
            "given": [
              "太郎"
            ]
          },
          {
            "extension": [
              {
                "url": "http://hl7.org/fhir/StructureDefinition/iso21090-EN-representation",
                "valueCode": "SYL"
              }
            ],
            "use": "official",
            "text": "トウキョウ　タロウ",
            "family": "トウキョウ",
            "given": [
              "タロウ"
            ]
          }
        ],
        "gender": "male",
        "birthDate": "1920-02-11",
        "address": [
          {
            "text": "神奈川県横浜市港区１－２－３",
            "postalCode": "123-4567",
            "country": "JP"
          }
        ]
      }
    },
    {
      "fullUrl": "urn:uuid:d151a740-d8a1-9c19-29f0-f52476e619d7",
      "resource": {
        "resourceType": "Encounter",
        "id": "JP-Encounter-ePreData-Example",
        "meta": {
          "profile": [
            "http://jpfhir.jp/fhir/core/StructureDefinition/JP_Encounter",
            "http://jpfhir.jp/fhir/ePrescription/StructureDefinition/JP_Encounter_ePrescriptionData"
          ]
        },
        "status": "finished",
        "class": {
          "code": "AMB",
          "system": "http://terminology.hl7.org/CodeSystem/v3-ActCode",
          "display": "外来"
        }
      }
    },
    {
      "fullUrl": "urn:uuid:9b4e6a12-7bb3-5d46-a126-31b33410f796",
      "resource": {
        "resourceType": "Coverage",
        "id": "JP-Coverage-ePreData-insurance-Example",
        "meta": {
          "profile": [
            "http://jpfhir.jp/fhir/core/StructureDefinition/JP_Coverage",
            "http://jpfhir.jp/fhir/ePrescription/StructureDefinition/JP_Coverage_ePrescriptionData_insurance"
          ]
        },
        "status": "active",
        "type": {
          "coding": [
            {
              "code": "1",
              "system": "urn:oid:1.2.392.100495.20.2.61"
            }
          ]
        },
        "beneficiary": {
          "reference": "Patient/JP-Patient-ePreData-Example"
        },
        "dependent": "01",
        "relationship": {
          "coding": [
            {
              "code": "1",
              "system": "urn:oid:1.2.392.100495.20.2.62",
              "display": "被保険者"
            }
          ]
        },
        "period": {
          "start": "2018-04-01"
        },
        "payor": [
          {
            "reference": "Organization/JP-Organization-ePreData-coveragePayer-Example"
          }
        ],
        "costToBeneficiary": [
          {
            "type": {
              "coding": [
                {
                  "code": "copaypct",
                  "system": "http://terminology.hl7.org/CodeSystem/coverage-copay-type",
                  "display": "負担率"
                }
              ]
            },
            "valueQuantity": {
              "value": 30,
              "code": "%",
              "system": "http://unitsofmeasure.org",
              "unit": "%"
            }
          }
        ],
        "extension": [
          {
            "url": "http://jpfhir.jp/fhir/core/Extension/StructureDefinition/JP_Coverage_InsuredPersonSymbol",
            "valueString": "12345"
          },
          {
            "url": "http://jpfhir.jp/fhir/core/Extension/StructureDefinition/JP_Coverage_InsuredPersonNumber",
            "valueString": "６７８９０"
          },
          {
            "url": "http://jpfhir.jp/fhir/core/Extension/StructureDefinition/JP_Coverage_InsuredPersonSubNumber",
            "valueString": "01"
          }
        ]
      }
    },
    {
      "fullUrl": "urn:uuid:32326e64-2e22-2ea9-06e8-460ce4b70593",
      "resource": {
        "resourceType": "Coverage",
        "id": "JP-Coverage-ePreData-publicPayment-Example",
        "meta": {
          "profile": [
            "http://jpfhir.jp/fhir/core/StructureDefinition/JP_Coverage",
            "http://jpfhir.jp/fhir/ePrescription/StructureDefinition/JP_Coverage_ePrescriptionData_publicPayment"
          ]
        },
        "status": "active",
        "type": {
          "coding": [
            {
              "code": "8",
              "system": "urn:oid:1.2.392.100495.20.2.61"
            }
          ]
        },
        "subscriberId": "12345678",
        "beneficiary": {
          "reference": "Patient/JP-Patient-ePreData-Example"
        },
        "period": {
          "start": "2020-01-01",
          "end": "2020-12-31"
        },
        "payor": [
          {
            "reference": "Organization/JP-Organization-ePreData-publicPayer-Example"
          }
        ],
        "order": 1,
        "costToBeneficiary": [
          {
            "type": {
              "coding": [
                {
                  "code": "copaypct",
                  "system": "http://terminology.hl7.org/CodeSystem/coverage-copay-type",
                  "display": "負担率"
                }
              ]
            },
            "valueQuantity": {
              "value": 10,
              "code": "%",
              "system": "http://unitsofmeasure.org",
              "unit": "%"
            }
          }
        ]
      }
    },
    {
      "fullUrl": "urn:uuid:a1ae0c57-d89f-3757-081d-05466134481d",
      "resource": {
        "resourceType": "Organization",
        "id": "JP-Organization-ePreData-coveragePayer-Example",
        "meta": {
          "profile": [
            "http://jpfhir.jp/fhir/core/StructureDefinition/JP_Organization",
            "http://jpfhir.jp/fhir/ePrescription/StructureDefinition/JP_Organization_ePrescriptionData_coveragePayer"
          ]
        },
        "identifier": [
          {
            "system": "urn:oid:1.2.392.100495.20.3.61",
            "value": "06123456"
          }
        ],
        "type": [
          {
            "coding": [
              {
                "code": "ins",
                "system": "http://terminology.hl7.org/CodeSystem/organization-type"
              }
            ]
          }
        ],
        "name": "サンプル健康保険組合"
      }
    },
    {
      "fullUrl": "urn:uuid:73e9e96a-3c8b-1125-937b-06639ed865c1",
      "resource": {
        "resourceType": "Organization",
        "id": "JP-Organization-ePreData-publicPayer-Example",
        "meta": {
          "profile": [
            "http://jpfhir.jp/fhir/core/StructureDefinition/JP_Organization",
            "http://jpfhir.jp/fhir/ePrescription/StructureDefinition/JP_Organization_ePrescriptionData_coveragePayer"
          ]
        },
        "identifier": [
          {
            "system": "urn:oid:1.2.392.100495.20.3.71",
            "value": "01234567"
          }
        ],
        "type": [
          {
            "coding": [
              {
                "code": "other",
                "system": "http://terminology.hl7.org/CodeSystem/organization-type"
              }
            ]
          }
        ],
        "name": "神奈川県横浜市"
      }
    },
    {
      "fullUrl": "urn:uuid:51c6333d-92ff-0113-56cd-a1f566f43a09",
      "resource": {
        "resourceType": "Organization",
        "id": "JP-Organization-ePreData-departmentOfIssuer-Example",
        "meta": {
          "profile": [
            "http://jpfhir.jp/fhir/core/StructureDefinition/JP_Organization",
            "http://jpfhir.jp/fhir/ePrescription/StructureDefinition/JP_Organization_ePrescriptionData_departmentOfIssuer"
          ]
        },
        "type": [
          {
            "coding": [
              {
                "code": "dept",
                "system": "http://terminology.hl7.org/CodeSystem/organization-type"
              }
            ]
          },
          {
            "coding": [
              {
                "code": "01",
                "system": "urn:oid:1.2.392.100495.20.2.51",
                "display": "内科"
              }
            ]
          }
        ],
        "name": "内科",
        "partOf": {
          "reference": "Organization/JP-Organization-ePreData-issuer-Example"
        }
      }
    },
    {
      "fullUrl": "urn:uuid:1e9e5b25-5c46-5f42-9234-0e8406fcba2b",
      "resource": {
        "resourceType": "Organization",
        "id": "JP-Organization-ePreData-issuer-Example",
        "meta": {
          "profile": [
            "http://jpfhir.jp/fhir/core/StructureDefinition/JP_Organization",
            "http://jpfhir.jp/fhir/ePrescription/StructureDefinition/JP_Organization_ePrescriptionData_issuer"
          ]
        },
        "extension": [
          {
            "url": "http://jpfhir.jp/fhir/core/Extension/StructureDefinition/JP_Organization_PrefectureNo",
            "valueIdentifier": {
              "system": "urn:oid:1.2.392.100495.20.3.21",
              "value": "13"
            }
          },
          {
            "url": "http://jpfhir.jp/fhir/core/Extension/StructureDefinition/JP_Organization_InsuranceOrganizationCategory",
            "valueIdentifier": {
              "system": "urn:oid:1.2.392.100495.20.3.22",
              "value": "1"
            }
          },
          {
            "url": "http://jpfhir.jp/fhir/core/Extension/StructureDefinition/JP_Organization_InsuranceOrganizationNo",
            "valueIdentifier": {
              "system": "urn:oid:1.2.392.100495.20.3.23",
              "value": "1234567"
            }
          }
        ],
        "identifier": [
          {
            "system": "http://jpfhir.jp/fhir/Common/IdSystem/insurance-medical-institution-no",
            "value": "1311234567"
          }
        ],
        "type": [
          {
            "coding": [
              {
                "code": "prov",
                "system": "http://terminology.hl7.org/CodeSystem/organization-type"
              }
            ]
          }
        ],
        "name": "第一病院",
        "telecom": [
          {
            "system": "phone",
            "value": "0123-456-7890"
          }
        ],
        "address": [
          {
            "text": "東京都千代田区千代田９－９－９"
          }
        ]
      }
    },
    {
      "fullUrl": "urn:uuid:2e61a47b-a7fa-1d23-ebbf-eade736e9b00",
      "resource": {
        "resourceType": "PractitionerRole",
        "id": "JP-PractitionerRole-ePreData-author-Example",
        "meta": {
          "profile": [
            "http://jpfhir.jp/fhir/core/StructureDefinition/JP_PractitionerRole",
            "http://jpfhir.jp/fhir/ePrescription/StructureDefinition/JP_PractitionerRole_ePrescriptionData_author"
          ]
        },
        "identifier": [
          {
            "system": "http://exapmleHospital.jp/IdSystem/hisUserRoleId",
            "value": "702"
          }
        ],
        "practitioner": {
          "reference": "Practitioner/JP-Practitioner-ePreData-author-Example"
        },
        "organization": {
          "reference": "Organization/JP-Organization-ePreData-issuer-Example"
        },
        "code": [
          {
            "coding": [
              {
                "code": "doctor",
                "system": "http://jpfhir.jp/fhir/Common/CodeSystem/practitioner-role-category"
              }
            ]
          }
        ]
      }
    },
    {
      "fullUrl": "urn:uuid:a871437d-03eb-edfb-9ac7-f3313c54f31a",
      "resource": {
        "resourceType": "Practitioner",
        "id": "JP-Practitioner-ePreData-author-Example",
        "meta": {
          "profile": [
            "http://jpfhir.jp/fhir/core/StructureDefinition/JP_Practitioner",
            "http://jpfhir.jp/fhir/ePrescription/StructureDefinition/JP_Practitioner_ePrescriptionData_author"
          ]
        },
        "identifier": [
          {
            "system": "urn:oid:1.2.392.100495.20.3.41.11311234567",
            "value": "123"
          }
        ],
        "name": [
          {
            "extension": [
              {
                "url": "http://hl7.org/fhir/StructureDefinition/iso21090-EN-representation",
                "valueCode": "IDE"
              }
            ],
            "text": "神奈川　花子",
            "family": "神奈川",
            "given": [
              "花子"
            ]
          },
          {
            "extension": [
              {
                "url": "http://hl7.org/fhir/StructureDefinition/iso21090-EN-representation",
                "valueCode": "SYL"
              }
            ],
            "text": "カナガワ　ハナコ",
            "family": "カナガワ",
            "given": [
              "ハナコ"
            ]
          }
        ],
        "qualification": [
          {
            "identifier": [
              {
                "system": "urn:oid:1.2.392.100495.20.3.31",
                "value": "123456"
              }
            ],
            "code": {
              "coding": [
                {
                  "code": "MedicalDoctorLicense",
                  "system": "http://jpfhir.jp/fhir/core/CodeSystem/practitioner-certificate-category"
                }
              ]
            }
          },
          {
            "identifier": [
              {
                "system": "urn:oid:1.2.392.100495.20.3.32.113",
                "value": "4-321"
              }
            ],
            "code": {
              "coding": [
                {
                  "code": "NarcoticsPractitioner",
                  "system": "http://jpfhir.jp/fhir/core/CodeSystem/practitioner-certificate-category"
                }
              ]
            }
          }
        ]
      }
    },
    {
      "fullUrl": "urn:uuid:a58040b7-6283-fb0c-4b25-a17dca08cc3d",
      "resource": {
        "resourceType": "MedicationRequest",
        "id": "JP-MedReq-ePreData-Example-naihuku",
        "meta": {
          "profile": [
            "http://jpfhir.jp/fhir/core/StructureDefinition/JP_MedicationRequest",
            "http://jpfhir.jp/fhir/ePrescription/StructureDefinition/JP_MedicationRequest_ePrescriptionData"
          ]
        },
        "intent": "order",
        "identifier": [
          {
            "system": "urn:oid:1.2.392.100495.20.3.81",
            "value": "1"
          },
          {
            "system": "urn:oid:1.2.392.100495.20.3.82",
            "value": "1"
          }
        ],
        "dosageInstruction": [
          {
            "route": {
              "coding": [
                {
                  "system": "http://jpfhir.jp/fhir/ePrescription/CodeSystem/route-codes",
                  "code": "PO",
                  "display": "口"
                }
              ]
            },
            "doseAndRate": [
              {
                "type": {
                  "coding": [
                    {
                      "system": "urn:oid:1.2.392.100495.20.2.22",
                      "code": "1",
                      "display": "製剤量"
                    }
                  ]
                },
                "rateRatio": {
                  "numerator": {
                    "system": "urn:oid:1.2.392.100495.20.2.101",
                    "value": 3,
                    "code": "TAB",
                    "unit": "錠"
                  },
                  "denominator": {
                    "value": 1,
                    "unit": "日",
                    "system": "http://unitsofmeasure.org",
                    "code": "d"
                  }
                },
                "doseQuantity": {
                  "value": 1,
                  "code": "TAB",
                  "system": "urn:oid:1.2.392.100495.20.2.101",
                  "unit": "錠"
                }
              }
            ],
            "extension": [
              {
                "url": "http://jpfhir.jp/fhir/core/Extension/StructureDefinition/JP_MedicationRequest_DosageInstruction_UsageDuration",
                "valueDuration": {
                  "value": 7,
                  "code": "d",
                  "system": "http://unitsofmeasure.org",
                  "unit": "日"
                }
              }
            ],
            "text": "内服・経口・１日３回朝昼夕食後　１回１錠　７日分",
            "timing": {
              "repeat": {
                "boundsDuration": {
                  "value": 7,
                  "code": "d",
                  "system": "http://unitsofmeasure.org",
                  "unit": "日"
                }
              },
              "code": {
                "coding": [
                  {
                    "code": "1013044400000000",
                    "system": "urn:oid:1.2.392.200250.2.2.20.20",
                    "display": "内服・経口・１日３回朝昼夕食後"
                  }
                ]
              }
            },
            "method": {
              "coding": [
                {
                  "code": "1",
                  "system": "urn:oid:1.2.392.200250.2.2.20.30",
                  "display": "内服"
                }
              ]
            }
          }
        ],
        "dispenseRequest": {
          "quantity": {
            "system": "urn:oid:1.2.392.100495.20.2.101",
            "value": 21,
            "code": "TAB",
            "unit": "錠"
          },
          "expectedSupplyDuration": {
            "unit": "日",
            "system": "http://unitsofmeasure.org",
            "code": "d",
            "value": 7
          }
        },
        "substitution": {
          "allowedCodeableConcept": {
            "coding": [
              {
                "system": "urn:oid:1.2.392.100495.20.2.41",
                "code": "1",
                "display": "変更不可"
              }
            ]
          },
          "reason": {
            "text": "患者からの強い要望により"
          }
        },
        "status": "active",
        "medicationCodeableConcept": {
          "coding": [
            {
              "code": "103831601",
              "system": "urn:oid:1.2.392.200119.4.403.1",
              "display": "カルボシステイン錠２５０ｍｇ"
            },
            {
              "code": "2233002F1280",
              "system": "urn:oid:1.2.392.100495.20.1.73",
              "display": "カルボシステイン錠２５０ｍｇ"
            }
          ],
          "text": "カルボシステイン２５０ｍｇ錠"
        },
        "subject": {
          "reference": "Patient/JP-Patient-ePreData-Example"
        },
        "authoredOn": "2020-08-21T12:28:17+09:00",
        "note": [
          {
            "text": "薬剤単位の備考"
          }
        ]
      }
    },
    {
      "fullUrl": "urn:uuid:632cdb4b-36fe-05fb-9a3d-b4230cb7e608",
      "resource": {
        "resourceType": "MedicationRequest",
        "id": "JP-MedReq-ePreData-Example-gaiyou01",
        "meta": {
          "profile": [
            "http://jpfhir.jp/fhir/core/StructureDefinition/JP_MedicationRequest",
            "http://jpfhir.jp/fhir/ePrescription/StructureDefinition/JP_MedicationRequest_ePrescriptionData"
          ]
        },
        "intent": "order",
        "identifier": [
          {
            "system": "urn:oid:1.2.392.100495.20.3.81",
            "value": "1"
          },
          {
            "system": "urn:oid:1.2.392.100495.20.3.82",
            "value": "1"
          }
        ],
        "dosageInstruction": [
          {
            "doseAndRate": [
              {
                "type": {
                  "coding": [
                    {
                      "system": "urn:oid:1.2.392.100495.20.2.22",
                      "code": "1",
                      "display": "製剤量"
                    }
                  ]
                },
                "doseQuantity": {
                  "value": 1,
                  "code": "DROP",
                  "system": "urn:oid:1.2.392.100495.20.2.101",
                  "unit": "滴"
                }
              }
            ],
            "text": "外用・点眼・１日３回　１回１滴（右眼）",
            "timing": {
              "code": {
                "coding": [
                  {
                    "code": "2H73000000000000",
                    "system": "urn:oid:1.2.392.200250.2.2.20.20",
                    "display": "外用・点眼・１日３回"
                  }
                ]
              }
            },
            "site": {
              "coding": [
                {
                  "code": "26R",
                  "system": "urn:oid:1.2.392.200250.2.2.20.32",
                  "display": "右眼"
                }
              ]
            }
          },
          {
            "doseAndRate": [
              {
                "type": {
                  "coding": [
                    {
                      "system": "urn:oid:1.2.392.100495.20.2.22",
                      "code": "1",
                      "display": "製剤量"
                    }
                  ]
                },
                "doseQuantity": {
                  "value": 2,
                  "code": "DROP",
                  "system": "urn:oid:1.2.392.100495.20.2.101",
                  "unit": "滴"
                }
              }
            ],
            "text": "外用・点眼・１日３回　１回２滴（左眼）",
            "timing": {
              "code": {
                "coding": [
                  {
                    "code": "2H73000000000000",
                    "system": "urn:oid:1.2.392.200250.2.2.20.20",
                    "display": "外用・点眼・１日３回"
                  }
                ]
              }
            },
            "site": {
              "coding": [
                {
                  "code": "26L",
                  "system": "urn:oid:1.2.392.200250.2.2.20.32",
                  "display": "左眼"
                }
              ]
            }
          }
        ],
        "dispenseRequest": {
          "quantity": {
            "system": "urn:oid:1.2.392.100495.20.2.101",
            "value": 2,
            "code": "HON",
            "unit": "本"
          }
        },
        "status": "active",
        "medicationCodeableConcept": {
          "coding": [
            {
              "code": "102094601",
              "system": "urn:oid:1.2.392.200119.4.403.1",
              "display": "チモプトール点眼薬０．２５％　５ｍＬ"
            }
          ],
          "text": "チモプトール点眼薬０．２５％５ｍＬ"
        },
        "subject": {
          "reference": "Patient/JP-Patient-ePreData-Example"
        },
        "authoredOn": "2020-08-21T12:28:17+09:00"
      }
    },
    {
      "fullUrl": "urn:uuid:499f7db1-b4c2-3d01-b1a0-dfdb502977ab",
      "resource": {
        "resourceType": "Communication",
        "id": "JP-Commumication-ePreData-Example",
        "meta": {
          "profile": [
            "http://jpfhir.jp/fhir/StructureDefinition/JP_Communication"
          ]
        },
        "extension": [
          {
            "url": "http://jpfhir.jp/fhir/ePrescription/Extension/StructureDefinition/JP_Communication_CommunicationContent",
            "valueString": "患者は聴覚障害のため説明を紙に記載して渡すようにしてください。"
          }
        ],
        "category": [
          {
            "coding": [
              {
                "code": "2",
                "system": "http://jpfhir.jp/fhir/ePrescription/CodeSystem/communication-category",
                "display": "調剤者への指示"
              }
            ]
          }
        ],
        "status": "completed"
      }
    }
  ]
}
